{
    "resourceType": "Bundle",
    "id": "livd-example",
    "meta": {
        "profile": [
            "http://hl7.org/fhir/uv/livd/StructureDefinition/bundle-uv-livd"
        ]
    },
    "identifier": {
        "system": "https://www.abbott.com",
        "value": "a809e430-5d17-4248-b595-d575fea6eb10"
    },
    "type": "collection",
    "entry": [
        {
            "fullUrl": "urn:uuid:40baf389-d34c-4402-8589-59cd48095584",
            "resource": {
                "resourceType": "Composition",
                "id": "40baf389-d34c-4402-8589-59cd48095584",
                "language": "en-US",
                "meta": {
                    "profile": "http://hl7.org/fhir/uv/livd/StructureDefinition/catalog-uv-livd"
                },
                "identifier": {
                    "system": "https://www.abbott.com",
                    "value": "ARCHITECT CC v0.9.0",
                    "assigner": {
                        "display": "Abbott Diagnostics"
                    }
                },
                "status": "final",
                "type": {
                    "coding": [
                        {
                            "system": "http://loinc.org",
                            "version": "2.65",
                            "code": "90370-8",
                            "display": "LIVD mapping data set"
                        }
                    ]
                },
                "date": "2018-09-12",
                "author": [
                    {
                        "display": "Abbott"
                    }
                ],
                "title": "Abbott LIVD HL7 Connectathon",
                "section": [
                    {
                        "title": "Devices",
                        "code": {
                            "coding": [
                                {
                                    "system": "http://hl7.org/fhir/uv/livd/CodeSystem/livd-section-type",
                                    "code": "devices",
                                    "display": "Device Definitions"
                                }
                            ]
                        },
                        "entry": [
                            {
                                "reference": "DeviceDefinition/1faf1d64-df18-4d7a-b45d-3872ddd3f165"
                            }
                        ]
                    },
                    {
                        "title": "Observation Definitions",
                        "code": {
                            "coding": [
                                {
                                    "system": "http://hl7.org/fhir/uv/livd/CodeSystem/livd-section-type",
                                    "code": "observation-definitions",
                                    "display": "Observation Definitions"
                                }
                            ]
                        },
                        "entry": [
                            {
                                "reference": "ObservationDefinition/b87458ca-b29a-4244-b347-39111caf9ef2"
                            }
                        ]
                    },
                    {
                        "title": "Concept Maps",
                        "code": {
                            "coding": [
                                {
                                    "system": "http://hl7.org/fhir/uv/livd/CodeSystem/livd-section-type",
                                    "code": "concept-map",
                                    "display": "Concept Map"
                                }
                            ]
                        },
                        "entry": [
                            {
                                "reference": "ConceptMap/66a4034b-6cc6-46ed-be83-343dfc51f2d7"
                            }
                        ]
                    }
                ]
            }
        },
        {
            "fullUrl": "urn:uuid:1faf1d64-df18-4d7a-b45d-3872ddd3f165",
            "resource": {
                "resourceType": "DeviceDefinition",
                "id": "1faf1d64-df18-4d7a-b45d-3872ddd3f165",
                "meta": {
                    "profile": "http://hl7.org/fhir/uv/livd/StructureDefinition/devicedefinition-uv-livd"
                },
                "udiDeviceIdentifier": [
                    {
                        "deviceIdentifier": "00380740003746",
                        "issuer": "FDA",
                        "jurisdiction": "https://unstats.un.org/unsd/methodology/m49/021"
                    }
                ],
                "manufacturerString": "Abbott Diagnostics",
                "modelNumber": "ARCHITECT c4000",
                "capability": [
                    {
                        "extension": [
                            {
                                "url": "http://hl7.org/fhir/uv/livd/StructureDefinition/ext-capability",
                                "valueReference": {
                                    "reference": "ObservationDefinition/b87458ca-b29a-4244-b347-39111caf9ef2"
                                }
                            }
                        ],
                        "type": {
                            "coding": [
                                {
                                    "code": "ObservationDefinition"
                                }
                            ]
                        }
                    }
                ]
            }
        },
        {
            "fullUrl": "urn:uuid:b87458ca-b29a-4244-b347-39111caf9ef2",
            "resource": {
                "resourceType": "ObservationDefinition",
                "id": "b87458ca-b29a-4244-b347-39111caf9ef2",
                "meta": {
                    "profile": "http://hl7.org/fhir/uv/livd/StructureDefinition/observationdefinition-uv-livd"
                },
                "code": {
                    "coding": [
                        {
                            "system": "http://www.corelaboratory.com/ARCHITECT",
                            "code": "1069",
                            "display": "GluC"
                        }
                    ]
                },
                "extension": [
                    {
                        "url": "http://hl7.org/fhir/uv/livd/StructureDefinition/ext-device",
                        "valueReference": {
                            "reference": "DeviceDefinition/1faf1d64-df18-4d7a-b45d-3872ddd3f165"
                        }
                    },
                    {
                        "url": "http://hl7.org/fhir/uv/livd/StructureDefinition/ext-vendorReferenceIdentifier",
                        "valueIdentifier": {
                            "value": "3L82"
                        }
                    }
                ]
            }
        },
        {
            "fullUrl": "urn:uuid:66a4034b-6cc6-46ed-be83-343dfc51f2d7",
            "resource": {
                "resourceType": "ConceptMap",
                "id": "66a4034b-6cc6-46ed-be83-343dfc51f2d7",
                "meta": {
                    "profile": "http://hl7.org/fhir/uv/livd/StructureDefinition/conceptmap-uv-livd"
                },
                "url": "http://hl7.org/fhir/uv/livd/ConceptMap/66a4034b-6cc6-46ed-be83-343dfc51f2d7",
                "name": "LivdConceptMap",
                "status": "active",
                "sourceUri": "ObservationDefinition",
                "targetCanonical": "http://hl7.org/fhir/uv/livd/ValueSet/loinc-livd",
                "group": [
                    {
                        "element": [
                            {
                                "code": "b87458ca-b29a-4244-b347-39111caf9ef2",
                                "display": "GluC",
                                "target": [
                                    {
                                        "code": "14749-6",
                                        "display": "Glucose [Moles/volume] in Serum or Plasma",
                                        "equivalence": "equivalent",
                                        "dependsOn": [
                                            {
                                                "property": "specimen",
                                                "value": "Serum/Plasma"
                                            },
                                            {
                                                "property": "result",
                                                "value": "mmol/L"
                                            }
                                        ]
                                    }
                                ]
                            },
                            {
                                "code": "b87458ca-b29a-4244-b347-39111caf9ef2",
                                "display": "GluC",
                                "target": [
                                    {
                                        "code": "2345-7",
                                        "display": "Glucose [Mass/volume] in Serum or Plasma",
                                        "equivalence": "equivalent",
                                        "dependsOn": [
                                            {
                                                "property": "specimen",
                                                "value": "Serum/Plasma"
                                            },
                                            {
                                                "property": "result",
                                                "value": "mg/dL"
                                            }
                                        ]
                                    }
                                ]
                            }
                        ]
                    }
                ]
            }
        },
        {
            "fullUrl": "urn:uuid:6bdc579a-67bf-47cf-833d-f4c905a6d1da",
            "resource": {
                "resourceType": "ValueSet",
                "id": "loinc-livd",
                "url": "http://hl7.org/fhir/uv/livd/ValueSet/loinc-livd",
                "version": "0.1.0",
                "name": "LivdLoincVS",
                "title": "LOINC value set for LIVD",
                "status": "draft",
                "date": "2018-09-25",
                "description": "Includes the subset of LOINC codes that are relevant for this ConceptMap.",
                "compose": {
                    "include": [
                        {
                            "system": "http://loinc.org",
                            "version": "2.65",
                            "concept": [
                                {
                                    "code": "90370-8",
                                    "display": "LIVD mapping data set"
                                },
                                {
                                    "code": "14749-6",
                                    "display": "Glucose [Moles/volume] in Serum or Plasma"
                                },
                                {
                                    "code": "2345-7",
                                    "display": "Glucose [Mass/volume] in Serum or Plasma"
                                }
                            ]
                        }
                    ]
                }
            }
        },
        {
            "fullUrl": "urn:uuid:f4660377-c8fb-467f-88fc-0303d1d4c0dc",
            "resource": {
                "resourceType": "CodeSystem",
                "id": "loinc-fragment-livd",
                "meta": {
                    "profile": "http://hl7.org/fhir/uv/livd/StructureDefinition/codesystem-loinc-frag-uv-livd"
                },
                "url": "http://loinc.org",
                "identifier": [
                    {
                        "system": "urn:ietf:rfc:3986",
                        "value": "urn:oid:2.16.840.1.113883.6.1"
                    }
                ],
                "version": "2.65",
                "name": "LOINC",
                "title": "LOINC Code System",
                "status": "active",
                "publisher": "Regenstrief Institute, Inc.",
                "copyright": "This content from LOINC® is copyright © 1995 Regenstrief Institute, Inc. and the LOINC Committee, and available at no cost under the license at http://loinc.org/terms-of-use",
                "caseSensitive": false,
                "content": "fragment",
                "property": [
                    {
                        "code": "COMPONENT",
                        "uri": "http://loinc.org/property/COMPONENT",
                        "description": "First major axis-component or analyte: Analyte Name, Analyte sub-class, Challenge",
                        "type": "string"
                    },
                    {
                        "code": "PROPERTY",
                        "uri": "http://loinc.org/property/PROPERTY",
                        "description": "Second major axis-property observed: Kind of Property (also called kind of quantity)",
                        "type": "string"
                    },
                    {
                        "code": "TIME_ASPCT",
                        "uri": "http://loinc.org/property/TIME_ASPCT",
                        "description": "Third major axis-timing of the measurement: Time Aspect (Point or moment in time vs. time interval)",
                        "type": "string"
                    },
                    {
                        "code": "SYSTEM",
                        "uri": "http://loinc.org/property/SYSTEM",
                        "description": "Fourth major axis-type of specimen or system: System (Sample) Type",
                        "type": "string"
                    },
                    {
                        "code": "SCALE_TYP",
                        "uri": "http://loinc.org/property/SCALE_TYP",
                        "description": "Fifth major axis-scale of measurement: Type of Scale",
                        "type": "string"
                    },
                    {
                        "code": "METHOD_TYP",
                        "uri": "http://loinc.org/property/METHOD_TYP",
                        "description": "Sixth major axis-method of measurement: Type of Method",
                        "type": "string"
                    }
                ],
                "concept": [
                    {
                        "code": "90370-8",
                        "display": "LIVD mapping data set",
                        "property": [
                            {
                                "code": "COMPONENT",
                                "valueString": "Vendor test code to LOINC mapping data set (LP269198-0)"
                            },
                            {
                                "code": "PROPERTY",
                                "valueString": "Find (LP6813-2)"
                            },
                            {
                                "code": "TIME_ASPCT",
                                "valueString": "Pt (LP6960-1)"
                            },
                            {
                                "code": "SYSTEM",
                                "valueString": "{Device} (LP76022-0)"
                            },
                            {
                                "code": "SCALE_TYP",
                                "valueString": "Doc (LP7753-9)"
                            }
                        ]
                    },
                    {
                        "code": "14749-6",
                        "display": "Glucose [Moles/volume] in Serum or Plasma",
                        "property": [
                            {
                                "code": "COMPONENT",
                                "valueString": "Glucose (LP14635-4)"
                            },
                            {
                                "code": "PROPERTY",
                                "valueString": "SCnc (LP6860-3)"
                            },
                            {
                                "code": "TIME_ASPCT",
                                "valueString": "Pt (LP6960-1)"
                            },
                            {
                                "code": "SYSTEM",
                                "valueString": "Ser/Plas (LP7576-4)"
                            },
                            {
                                "code": "SCALE_TYP",
                                "valueString": "Qn (LP7753-9)"
                            }
                        ]
                    },
                    {
                        "code": "2345-7",
                        "display": "Glucose [Mass/volume] in Serum or Plasma",
                        "property": [
                            {
                                "code": "COMPONENT",
                                "valueString": "Glucose (LP14635-4)"
                            },
                            {
                                "code": "PROPERTY",
                                "valueString": "MCnc (LP6827-2)"
                            },
                            {
                                "code": "TIME_ASPCT",
                                "valueString": "Pt (LP6960-1)"
                            },
                            {
                                "code": "SYSTEM",
                                "valueString": "Ser/Plas (LP7576-4)"
                            },
                            {
                                "code": "SCALE_TYP",
                                "valueString": "Qn (LP7753-9)"
                            }
                        ]
                    }
                ]
            }
        }
    ]
}