{
  "resourceType": "Bundle",
  "id": "livd-example-roche-quant",
  "meta": {
    "profile": [
      "http://hl7.org/fhir/uv/livd/StructureDefinition/bundle-uv-livd"
    ]
  },
  "identifier": {
    "system": "https://www.roche.com",
    "value": "ab2bf69b-c80b-4497-a352-31a25491f700"
  },
  "type": "transaction",
  "entry": [
    {
      "fullUrl": "urn:uuid:e2a81a3f-499c-4aab-ab34-a2cc9b3076cf",
      "resource": {
        "resourceType": "Composition",
        "id": "e2a81a3f-499c-4aab-ab34-a2cc9b3076cf",
        "meta": {
          "profile": [
            "http://hl7.org/fhir/uv/livd/StructureDefinition/catalog-uv-livd"
          ]
        },
        "language": "en-US",
        "text": {
          "status": "generated",
          "div": "<div lang=\"en-US\" xml:lang=\"en-US\" xmlns=\"http://www.w3.org/1999/xhtml\"><p><b>Generated Narrative with Details</b></p><p><b>id</b>: e2a81a3f-499c-4aab-ab34-a2cc9b3076cf</p><p><b>meta</b>: </p><p><b>language</b>: en-US</p><p><b>identifier</b>: cobas 8000</p><p><b>status</b>: generated</p><p><b>type</b>: LIVD mapping data set</p><p><b>date</b>: 2019-01-12</p><p><b>author</b>: Roche Diagnosticss</p><p><b>title</b>: HL7 Connectathon Demo Resource File</p></div>"
        },
        "identifier": {
          "system": "http://www.roche.com",
          "value": "a809e430-5d17-4248-b595-d575fea6eb10",
          "assigner": {
            "display": "Roche Diagnostics"
          }
        },
        "status": "final",
        "type": {
          "coding": [
            {
              "system": "http://new-loinc-code.org",
              "version": "2.64",
              "code": "90370-8",
              "display": "LIVD mapping data set"
            }
          ]
        },
        "date": "2019-01-12",
        "author": [
          {
            "display": "Roche Diagnostics"
          }
        ],
        "title": "HL7 Connectathon Demo Resource File",
        "section": [
          {
            "title": "Devices",
            "code": {
              "coding": [
                {
                  "system": "http://hl7.org/fhir/uv/livd/CodeSystem/livd-section-type",
                  "code": "devices",
                  "display": "Device Definitions"
                }
              ]
            },
            "entry": [
              {
                "reference": "DeviceDefinition/93e79b4c-8156-4023-84fa-abfcde8df311"
              },
              {
                "reference": "DeviceDefinition/54cb685d-ae5d-4914-9eca-706a67957d1e"
              }
            ]
          },
          {
            "title": "Observation Definitions",
            "code": {
              "coding": [
                {
                  "system": "http://hl7.org/fhir/uv/livd/CodeSystem/livd-section-type",
                  "code": "observation-definitions",
                  "display": "Observation Definitions"
                }
              ]
            },
            "entry": [
              {
                "reference": "ObservationDefinition/26ac22bf-9fbb-4dc9-82ef-93de72f92680"
              },
              {
                "reference": "ObservationDefinition/83fb6204-71b9-4659-8f90-1fca9e12518b"
              }
            ]
          },
          {
            "title": "Concept Maps",
            "code": {
              "coding": [
                {
                  "system": "http://hl7.org/fhir/uv/livd/CodeSystem/livd-section-type",
                  "code": "concept-map",
                  "display": "Concept Map"
                }
              ]
            },
            "entry": [
              {
                "reference": "ConceptMap/5e10d8dc-a847-4e81-a0be-a54e8f0b9a4b"
              }
            ]
          }
        ]
      },
      "request": {
        "method": "PUT",
        "url": "Composition/e2a81a3f-499c-4aab-ab34-a2cc9b3076cf"
      }
    },
    {
      "fullUrl": "urn:uuid:93e79b4c-8156-4023-84fa-abfcde8df311",
      "resource": {
        "resourceType": "DeviceDefinition",
        "id": "93e79b4c-8156-4023-84fa-abfcde8df311",
        "meta": {
          "profile": [
            "http://hl7.org/fhir/uv/livd/StructureDefinition/devicedefinition-uv-livd"
          ]
        },
        "text": {
          "status": "generated",
          "div": "<div xmlns=\"http://www.w3.org/1999/xhtml\"><p><b>blindtext</b></p></div>"
        },
        "udiDeviceIdentifier": [
          {
            "deviceIdentifier": "88da7350-7880-4863-9823-c7c94eb759c1",
            "issuer": "FDA",
            "jurisdiction": "US"
          }
        ],
        "manufacturerString": "Roche Diagnostics",
        "modelNumber": "cobas 8000",
        "capability": [
          {
            "type": {
              "coding": [
                {
                  "code": "ObservationDefinition"
                }
              ]
            },
            "extension": [
              {
                "url": "http://hl7.org/fhir/uv/livd/StructureDefinition/ext-capability",
                "valueReference": {
                  "reference": "ObservationDefinition/26ac22bf-9fbb-4dc9-82ef-93de72f92680"
                }
              },
              {
                "url": "http://hl7.org/fhir/uv/livd/StructureDefinition/ext-capability",
                "valueReference": {
                  "reference": "ObservationDefinition/83fb6204-71b9-4659-8f90-1fca9e12518b"
                }
              }
            ]
          }
        ]
      },
      "request": {
        "method": "PUT",
        "url": "DeviceDefinition/93e79b4c-8156-4023-84fa-abfcde8df311"
      }
    },
    {
      "fullUrl": "urn:uuid:54cb685d-ae5d-4914-9eca-706a67957d1e",
      "resource": {
        "resourceType": "DeviceDefinition",
        "id": "54cb685d-ae5d-4914-9eca-706a67957d1e",
        "meta": {
          "profile": [
            "http://hl7.org/fhir/uv/livd/StructureDefinition/devicedefinition-uv-livd"
          ]
        },
        "text": {
          "status": "generated",
          "div": "<div xmlns=\"http://www.w3.org/1999/xhtml\"><p><b>blindtext</b></p></div>"
        },
        "udiDeviceIdentifier": [
          {
            "deviceIdentifier": "9b8c3520-cb58-4d42-9bf0-01b5f23f6644",
            "issuer": "FDA",
            "jurisdiction": "US"
          }
        ],
        "manufacturerString": "Roche Diagnostics",
        "modelNumber": "cobas 8000",
        "capability": [
          {
            "type": {
              "coding": [
                {
                  "code": "ObservationDefinition"
                }
              ]
            },
            "extension": [
              {
                "url": "http://hl7.org/fhir/uv/livd/StructureDefinition/ext-capability",
                "valueReference": {
                  "reference": "ObservationDefinition/26ac22bf-9fbb-4dc9-82ef-93de72f92680"
                }
              },
              {
                "url": "http://hl7.org/fhir/uv/livd/StructureDefinition/ext-capability",
                "valueReference": {
                  "reference": "ObservationDefinition/83fb6204-71b9-4659-8f90-1fca9e12518b"
                }
              }
            ]
          }
        ]
      },
      "request": {
        "method": "PUT",
        "url": "DeviceDefinition/54cb685d-ae5d-4914-9eca-706a67957d1e"
      }
    },
    {
      "fullUrl": "urn:uuid:26ac22bf-9fbb-4dc9-82ef-93de72f92680",
      "resource": {
        "resourceType": "ObservationDefinition",
        "id": "26ac22bf-9fbb-4dc9-82ef-93de72f92680",
        "meta": {
          "profile": [
            "http://hl7.org/fhir/uv/livd/StructureDefinition/observationdefinition-uv-livd"
          ]
        },
        "text": {
          "status": "generated",
          "div": "<div xmlns=\"http://www.w3.org/1999/xhtml\"><p><b>Generated Narrative with Details</b></p><p><b>id</b>: 26ac22bf-9fbb-4dc9-82ef-93de72f92680</p><p><b>meta</b>: </p><p><b>code</b>: Glucose HK liquid<span style=\"background: LightGoldenRodYellow\">(Details : {http://www.roche.com/cobas8000 code '8717' = '8717', given as 'Glucose HK liquid'})</span></p></div>"
        },
        "extension": [
          {
            "url": "http://hl7.org/fhir/uv/livd/StructureDefinition/ext-device",
            "valueReference": {
              "reference": "DeviceDefinition/93e79b4c-8156-4023-84fa-abfcde8df311"
            }
          },
          {
            "url": "http://hl7.org/fhir/uv/livd/StructureDefinition/ext-device",
            "valueReference": {
              "reference": "DeviceDefinition/54cb685d-ae5d-4914-9eca-706a67957d1e"
            }
          }
        ],
        "code": {
          "coding": [
            {
              "system": "http://ww.roche.com/cobas8000",
              "code": "8717",
              "display": "Glucose HK liquid"
            }
          ]
        }
      },
      "request": {
        "method": "PUT",
        "url": "ObservationDefinition/26ac22bf-9fbb-4dc9-82ef-93de72f92680"
      }
    },
    {
      "fullUrl": "urn:uuid:83fb6204-71b9-4659-8f90-1fca9e12518b",
      "resource": {
        "resourceType": "ObservationDefinition",
        "id": "83fb6204-71b9-4659-8f90-1fca9e12518b",
        "meta": {
          "profile": [
            "http://hl7.org/fhir/uv/livd/StructureDefinition/observationdefinition-uv-livd"
          ]
        },
        "text": {
          "status": "generated",
          "div": "<div xmlns=\"http://www.w3.org/1999/xhtml\"><p><b>Generated Narrative with Details</b></p><p><b>id</b>: 83fb6204-71b9-4659-8f90-1fca9e12518b</p><p><b>meta</b>: </p><p><b>code</b>: %HBA1c - whole blood<span style=\"background: LightGoldenRodYellow\">(Details : {http://www.roche.com/cobas8000 code '890' = '890', given as '%HBA1c - whole blood'})</span></p></div>"
        },
        "extension": [
          {
            "url": "http://hl7.org/fhir/uv/livd/StructureDefinition/ext-device",
            "valueReference": {
              "reference": "DeviceDefinition/93e79b4c-8156-4023-84fa-abfcde8df311"
            }
          },
          {
            "url": "http://hl7.org/fhir/uv/livd/StructureDefinition/ext-device",
            "valueReference": {
              "reference": "DeviceDefinition/54cb685d-ae5d-4914-9eca-706a67957d1e"
            }
          }
        ],
        "code": {
          "coding": [
            {
              "system": "http://ww.roche.com/cobas8000",
              "code": "890",
              "display": "%HBA1c - whole blood"
            }
          ]
        }
      },
      "request": {
        "method": "PUT",
        "url": "ObservationDefinition/83fb6204-71b9-4659-8f90-1fca9e12518b"
      }
    },
    {
      "fullUrl": "urn:uuid:5e10d8dc-a847-4e81-a0be-a54e8f0b9a4b",
      "resource": {
        "resourceType": "ConceptMap",
        "id": "5e10d8dc-a847-4e81-a0be-a54e8f0b9a4b",
        "meta": {
          "profile": [
            "http://hl7.org/fhir/uv/livd/StructureDefinition/conceptmap-uv-livd"
          ]
        },
        "text": {
          "status": "generated",
          "div": "<div xmlns=\"http://www.w3.org/1999/xhtml\"><p><b>Generated Narrative with Details</b></p><p><b>id</b>: loinc-livd</p><p><b>url</b></p></div>"
        },
        "url": "http://hl7.org/fhir/uv/livd/ConceptMap/5e10d8dc-a847-4e81-a0be-a54e8f0b9a4b",
        "name": "RocheLivdConceptMap",
        "status": "active",
        "sourceUri": "http://hl7.org/fhir/uv/livd/StructureDefinition/devicedefinition-uv-livd",
        "targetCanonical": "http://hl7.org/fhir/uv/livd/ValueSet/loinc-livd",
        "group": [
          {
            "element": [
              {
                "code": "26ac22bf-9fbb-4dc9-82ef-93de72f92680",
                "display": "Glucose HK liquid",
                "target": [
                  {
                    "code": "2345-7",
                    "display": "Glucose HK liquid",
                    "equivalence": "equivalent",
                    "dependsOn": [
                      {
                        "property": "specimen",
                        "value": "Ser/Plas"
                      },
                      {
                        "property": "result",
                        "value": "mg/dL"
                      }
                    ]
                  }
                ]
              },
              {
                "code": "65d97d4d-ddba-451f-8278-7dfb9bf02d5d",
                "display": "Glucose HK liquid",
                "target": [
                  {
                    "code": "14749-6",
                    "display": "Glucose HK liquid",
                    "equivalence": "equivalent",
                    "dependsOn": [
                      {
                        "property": "specimen",
                        "value": "Ser/Plas"
                      },
                      {
                        "property": "result",
                        "value": "mmol/L"
                      }
                    ]
                  }
                ]
              },
              {
                "code": "cf295f86-2363-4b11-b79c-5cdc3c1a466f",
                "display": "Glucose HK liquid",
                "target": [
                  {
                    "code": "2342-4",
                    "display": "Glucose HK liquid",
                    "equivalence": "equivalent",
                    "dependsOn": [
                      {
                        "property": "specimen",
                        "value": "CSF"
                      },
                      {
                        "property": "result",
                        "value": "mg/dL"
                      }
                    ]
                  }
                ]
              },
              {
                "code": "db5dd261-7562-4c02-8a5c-47bef5873f65",
                "display": "Glucose HK liquid",
                "target": [
                  {
                    "code": "14744-7",
                    "display": "Glucose HK liquid",
                    "equivalence": "equivalent",
                    "dependsOn": [
                      {
                        "property": "specimen",
                        "value": "CSF"
                      },
                      {
                        "property": "result",
                        "value": "mmol/L"
                      }
                    ]
                  }
                ]
              },
              {
                "code": "1927fa4c-ad20-4daa-acd5-d843993e222c",
                "display": "Glucose HK liquid",
                "target": [
                  {
                    "code": "2350-7",
                    "display": "Glucose HK liquid",
                    "equivalence": "equivalent",
                    "dependsOn": [
                      {
                        "property": "specimen",
                        "value": "Urine"
                      },
                      {
                        "property": "result",
                        "value": "mg/dL"
                      }
                    ]
                  }
                ]
              },
              {
                "code": "3a4c6b60-1b34-435d-a97e-bf579d8e9d7a",
                "display": "Glucose HK liquid",
                "target": [
                  {
                    "code": "15076-3",
                    "display": "Glucose HK liquid",
                    "equivalence": "equivalent",
                    "dependsOn": [
                      {
                        "property": "specimen",
                        "value": "Urine"
                      },
                      {
                        "property": "result",
                        "value": "mmol/L"
                      }
                    ]
                  }
                ]
              },
              {
                "code": "83fb6204-71b9-4659-8f90-1fca9e12518b",
                "display": "%HBA1c - whole blood",
                "target": [
                  {
                    "code": "59261-8",
                    "display": "%HBA1c - whole blood",
                    "equivalence": "equivalent",
                    "dependsOn": [
                      {
                        "property": "specimen",
                        "value": "Bld"
                      },
                      {
                        "property": "result",
                        "value": "mmol/;mol"
                      }
                    ]
                  }
                ]
              },
              {
                "code": "3c0b191b-d770-47cf-b4e2-417391144fca",
                "display": "%HBA1c - whole blood",
                "target": [
                  {
                    "code": "4548-4",
                    "display": "%HBA1c - whole blood",
                    "equivalence": "equivalent",
                    "dependsOn": [
                      {
                        "property": "specimen",
                        "value": "Bld"
                      },
                      {
                        "property": "result",
                        "value": "%"
                      }
                    ]
                  }
                ]
              },
              {
                "code": "2f31d3a1-99e8-43b3-994d-35260d97f6c6",
                "display": "%HBA1c - whole blood",
                "target": [
                  {
                    "code": "17855-8",
                    "display": "%HBA1c - whole blood",
                    "equivalence": "equivalent",
                    "dependsOn": [
                      {
                        "property": "specimen",
                        "value": "Bld"
                      },
                      {
                        "property": "result",
                        "value": "%"
                      }
                    ]
                  }
                ]
              }
            ]
          }
        ]
      },
      "request": {
        "method": "PUT",
        "url": "ConceptMap/5e10d8dc-a847-4e81-a0be-a54e8f0b9a4b"
      }
    },
    {
      "fullUrl": "urn:uuid:3b665cc6-c0e8-43aa-936a-dbe68f920a78",
      "resource": {
        "resourceType": "ValueSet",
        "id": "loinc-livd-roche",
        "url": "https://www.roche.com/livd/ValueSet/loinc-livd-roche",
        "version": "0.1.0",
        "name": "RocheLivdLoincVS",
        "title": "Roche LOINC value set for LIVD",
        "status": "draft",
        "date": "2018-09-25",
        "description": "Includes the subset of LOINC codes that are relevant for this ConceptMap.",
        "compose": {
          "include": [
            {
              "system": "http://loinc.org",
              "version": "2.65",
              "concept": [
                {
                  "code": "90370-8",
                  "display": "LIVD mapping data set"
                },
                {
                  "code": "2345-7",
                  "display": "Glucose [Mass/volume] in Serum or Plasma"
                },
                {
                  "code": "14749-6",
                  "display": "Glucose [Moles/volume] in Serum or Plasma"
                },
                {
                  "code": "2342-4",
                  "display": "Glucose [Mass/volume] in Cerebral spinal fluid"
                },
                {
                  "code": "14744-7",
                  "display": "Glucose [Moles/volume] in Cerbral spinal fluid"
                },
                {
                  "code": "2350-7",
                  "display": "Glucose [Mass/volume] in Urine"
                },
                {
                  "code": "15076-3",
                  "display": "Glucose [Moles/volume] in Urine"
                },
                {
                  "code": "59261-8",
                  "display": "Hemoglobin A1c/Hemoglobin.total in Blood by IFCC protocol"
                },
                {
                  "code": "4548-4",
                  "display": "Hemoglobin A1c/Hemoglobin.total in Blood"
                },
                {
                  "code": "17855-8",
                  "display": "Hemoglobin A1c/Hemoglobin.total in Blood by calculation"
                }
              ]
            }
          ]
        }
      },
      "request": {
        "method": "PUT",
        "url": "ValueSet/loinc-livd-roche"
      }
    },
    {
      "fullUrl": "urn:uuid:a2b72ed2-5038-4646-8d19-195c2a561abc",
      "resource": {
        "resourceType": "CodeSystem",
        "id": "loinc-fragment-livd-roche",
        "meta": {
          "profile": [
            "http://hl7.org/fhir/uv/livd/StructureDefinition/codesystem-loinc-frag-uv-livd"
          ]
        },
        "text": {
          "status": "generated",
          "div": "<div xmlns=\"http://www.w3.org/1999/xhtml\"><p><b>Generated Narrative with Details</b></p><p><b>id</b>: loinc-livd</p><p><b>url</b></p></div>"
        },
        "url": "http://loinc.org",
        "identifier": [
          {
            "system": "urn:ietf:rfc:3986",
            "value": "urn:oid:2.16.840.1.113883.6.1"
          }
        ],
        "version": "2.65",
        "name": "LOINC",
        "title": "LOINC Code System",
        "status": "active",
        "publisher": "Regenstrief Institute, Inc.",
        "copyright": "This content from LOINC® is copyright © 1995 Regenstrief Institute, Inc. and the LOINC Committee, and available at no cost under the license at http://loinc.org/terms-of-use",
        "caseSensitive": false,
        "content": "fragment",
        "property": [
          {
            "code": "COMPONENT",
            "uri": "http://loinc.org/property/COMPONENT",
            "description": "First major axis-component or analyte: Analyte Name, Analyte sub-class, Challenge",
            "type": "string"
          },
          {
            "code": "PROPERTY",
            "uri": "http://loinc.org/property/PROPERTY",
            "description": "Second major axis-property observed: Kind of Property (also called kind of quantity)",
            "type": "string"
          },
          {
            "code": "TIME_ASPCT",
            "uri": "http://loinc.org/property/TIME_ASPCT",
            "description": "Third major axis-timing of the measurement: Time Aspect (Point or moment in time vs. time interval)",
            "type": "string"
          },
          {
            "code": "SYSTEM",
            "uri": "http://loinc.org/property/SYSTEM",
            "description": "Fourth major axis-type of specimen or system: System (Sample) Type",
            "type": "string"
          },
          {
            "code": "SCALE_TYP",
            "uri": "http://loinc.org/property/SCALE_TYP",
            "description": "Fifth major axis-scale of measurement: Type of Scale",
            "type": "string"
          },
          {
            "code": "METHOD_TYP",
            "uri": "http://loinc.org/property/METHOD_TYP",
            "description": "Sixth major axis-method of measurement: Type of Method",
            "type": "string"
          }
        ],
        "concept": [
          {
            "code": "90370-8",
            "display": "LIVD mapping data set",
            "property": [
              {
                "code": "COMPONENT",
                "valueString": "Vendor test code to LOINC mapping data set (LP269198-0)"
              },
              {
                "code": "PROPERTY",
                "valueString": "Find (LP6813-2)"
              },
              {
                "code": "TIME_ASPCT",
                "valueString": "Pt (LP6960-1)"
              },
              {
                "code": "SYSTEM",
                "valueString": "{Device} (LP76022-0)"
              },
              {
                "code": "SCALE_TYP",
                "valueString": "Doc (LP32888-7)"
              }
            ]
          },
          {
            "code": "2345-7",
            "display": "Glucose [Mass/volume] in Serum or Plasma",
            "property": [
              {
                "code": "COMPONENT",
                "valueString": "Glucose (LP14635-4)"
              },
              {
                "code": "PROPERTY",
                "valueString": "MCnc (LP6827-2)"
              },
              {
                "code": "TIME_ASPCT",
                "valueString": "Pt (LP6960-1)"
              },
              {
                "code": "SYSTEM",
                "valueString": "Ser/Plas (LP7576-4)"
              },
              {
                "code": "SCALE_TYP",
                "valueString": "Qn (LP7753-9)"
              }
            ]
          },
          {
            "code": "14749-6",
            "display": "Glucose [Moles/volume] in Serum or Plasma",
            "property": [
              {
                "code": "COMPONENT",
                "valueString": "Glucose (LP14635-4)"
              },
              {
                "code": "PROPERTY",
                "valueString": "SCnc (LP6860-3)"
              },
              {
                "code": "TIME_ASPCT",
                "valueString": "Pt (LP6960-1)"
              },
              {
                "code": "SYSTEM",
                "valueString": "Ser/Plas (LP7576-4)"
              },
              {
                "code": "SCALE_TYP",
                "valueString": "Qn (LP7753-9)"
              }
            ]
          },
          {
            "code": "2342-4",
            "display": "Glucose [Mass/volume] in Cerebral spinal fluid",
            "property": [
              {
                "code": "COMPONENT",
                "valueString": "Glucose (LP14635-4)"
              },
              {
                "code": "PROPERTY",
                "valueString": "MCnc (LP6827-2)"
              },
              {
                "code": "TIME_ASPCT",
                "valueString": "Pt (LP6960-1)"
              },
              {
                "code": "SYSTEM",
                "valueString": "CSF (LP7156-5)"
              },
              {
                "code": "SCALE_TYP",
                "valueString": "Qn (LP7753-9)"
              }
            ]
          },
          {
            "code": "14744-7",
            "display": "Glucose [Moles/volume] in Cerbral spinal fluid",
            "property": [
              {
                "code": "COMPONENT",
                "valueString": "Glucose (LP14635-4)"
              },
              {
                "code": "PROPERTY",
                "valueString": "SCnc (LP6860-3)"
              },
              {
                "code": "TIME_ASPCT",
                "valueString": "Pt (LP6960-1)"
              },
              {
                "code": "SYSTEM",
                "valueString": "CSF (LP7156-5)"
              },
              {
                "code": "SCALE_TYP",
                "valueString": "Qn (LP7753-9)"
              }
            ]
          },
          {
            "code": "2350-7",
            "display": "Glucose [Mass/volume] in Urine",
            "property": [
              {
                "code": "COMPONENT",
                "valueString": "Glucose (LP14635-4)"
              },
              {
                "code": "PROPERTY",
                "valueString": "MCnc (LP6827-2)"
              },
              {
                "code": "TIME_ASPCT",
                "valueString": "Pt (LP6960-1)"
              },
              {
                "code": "SYSTEM",
                "valueString": "Urine (LP7681-2)"
              },
              {
                "code": "SCALE_TYP",
                "valueString": "Qn (LP7753-9)"
              }
            ]
          },
          {
            "code": "15076-3",
            "display": "Glucose [Moles/volume] in Urine",
            "property": [
              {
                "code": "COMPONENT",
                "valueString": "Glucose (LP14635-4)"
              },
              {
                "code": "PROPERTY",
                "valueString": "SCnc (LP6860-3)"
              },
              {
                "code": "TIME_ASPCT",
                "valueString": "Pt (LP6960-1)"
              },
              {
                "code": "SYSTEM",
                "valueString": "Urine (LP7681-2)"
              },
              {
                "code": "SCALE_TYP",
                "valueString": "Qn (LP7753-9)"
              }
            ]
          },
          {
            "code": "59261-8",
            "display": "Hemoglobin A1c/Hemoglobin.total in Blood by IFCC protocol",
            "property": [
              {
                "code": "COMPONENT",
                "valueString": "Hemoglobin A1c/Hemoglobin.total (LP16413-4)"
              },
              {
                "code": "PROPERTY",
                "valueString": "SFr (LP6866-0)"
              },
              {
                "code": "TIME_ASPCT",
                "valueString": "Pt (LP6960-1)"
              },
              {
                "code": "SYSTEM",
                "valueString": "Bld (LP7057-5)"
              },
              {
                "code": "SCALE_TYP",
                "valueString": "Qn (LP7753-9)"
              },
              {
                "code": "METHOD_TYP",
                "valueString": "IFCC (LP99992-7)"
              }
            ]
          },
          {
            "code": "4548-4",
            "display": "Hemoglobin A1c/Hemoglobin.total in Blood",
            "property": [
              {
                "code": "COMPONENT",
                "valueString": "Hemoglobin A1c/Hemoglobin.total (LP16413-4)"
              },
              {
                "code": "PROPERTY",
                "valueString": "MFr (LP6831-4)"
              },
              {
                "code": "TIME_ASPCT",
                "valueString": "Pt (LP6960-1)"
              },
              {
                "code": "SYSTEM",
                "valueString": "Bld (LP7057-5)"
              },
              {
                "code": "SCALE_TYP",
                "valueString": "Qn (LP7753-9)"
              }
            ]
          },
          {
            "code": "17855-8",
            "display": "Hemoglobin A1c/Hemoglobin.total in Blood by calculation",
            "property": [
              {
                "code": "COMPONENT",
                "valueString": "Hemoglobin A1c/Hemoglobin.total (LP16413-4)"
              },
              {
                "code": "PROPERTY",
                "valueString": "MFr (LP6831-4)"
              },
              {
                "code": "TIME_ASPCT",
                "valueString": "Pt (LP6960-1)"
              },
              {
                "code": "SYSTEM",
                "valueString": "Bld (LP7057-5)"
              },
              {
                "code": "SCALE_TYP",
                "valueString": "Qn (LP7753-9)"
              },
              {
                "code": "METHOD_TYP",
                "valueString": "Calculated (LP6165-7)"
              }
            ]
          }
        ]
      },
      "request": {
        "method": "PUT",
        "url": "CodeSystem/loinc-fragment-livd-roche"
      }
    }
  ]
}