{
    "resourceType": "Bundle",
    "id": "livd-example",
    "meta": {
        "profile": [
            "http://hl7.org/fhir/uv/livd/StructureDefinition/bundle-uv-livd"
        ]
    },
    "identifier": {
        "system": "http://example.org/abbott/livd",
        "value": "a809e430-5d17-4248-b595-d575fea6eb10"
    },
    "type": "collection",
    "entry": [
        {
            "fullUrl": "urn:uuid:40baf389-d34c-4402-8589-59cd48095584",
            "resource": {
                "resourceType": "Composition",
                "id": "40baf389-d34c-4402-8589-59cd48095584",
                "language": "en-US",
                "meta": {
                    "profile": [
                        "http://hl7.org/fhir/uv/livd/StructureDefinition/catalog-uv-livd"
                    ]
                },
                "extension": [
                    {
                        "url": "http://hl7.org/fhir/uv/livd/StructureDefinition/ext-region",
                        "valueCodeableConcept": {
                            "coding": [
                                {
                                    "system": "http://unstats.un.org/unsd/methods/m49/m49.htm",
                                    "code": "840",
                                    "display": "United States of America (USA)"
                                }                                
                            ],
                            "text": "USA region"
                        }
                    }
                ],
                "identifier": {
                    "system": "http://example.org/abbott/livd",
                    "value": "ARCHITECT CC v0.9.0",
                    "assigner": {
                        "display": "Abbott Diagnostics"
                    }
                },
                "status": "final",
                "type": {
                    "coding": [
                        {
                            "system": "http://loinc.org",
                            "version": "2.65",
                            "code": "90370-8",
                            "display": "LIVD mapping data set"
                        }
                    ]
                },
                "date": "2018-09-12",
                "author": [
                    {
                        "display": "Abbott"
                    }
                ],
                "title": "Abbott LIVD HL7 Connectathon",
                "section": [
                    {
                        "title": "Devices",
                        "code": {
                            "coding": [
                                {
                                    "system": "http://hl7.org/fhir/uv/livd/CodeSystem/livd-section-type",
                                    "code": "devices",
                                    "display": "Device Definitions"
                                }
                            ]
                        },
                        "entry": [
                            {
                                "reference": "DeviceDefinition/1faf1d64-df18-4d7a-b45d-3872ddd3f165"
                            }
                        ]
                    },
                    {
                        "title": "Observation Definitions",
                        "code": {
                            "coding": [
                                {
                                    "system": "http://hl7.org/fhir/uv/livd/CodeSystem/livd-section-type",
                                    "code": "observation-definitions",
                                    "display": "Observation Definitions"
                                }
                            ]
                        },
                        "entry": [
                            {
                                "reference": "ObservationDefinition/b87458ca-b29a-4244-b347-39111caf9ef2"
                            }
                        ]
                    },
                    {
                        "title": "Concept Maps",
                        "code": {
                            "coding": [
                                {
                                    "system": "http://hl7.org/fhir/uv/livd/CodeSystem/livd-section-type",
                                    "code": "concept-map",
                                    "display": "Concept Map"
                                }
                            ]
                        },
                        "entry": [
                            {
                                "reference": "ConceptMap/66a4034b-6cc6-46ed-be83-343dfc51f2d7"
                            }
                        ]
                    }
                ]
            }
        },
        {
            "fullUrl": "urn:uuid:1faf1d64-df18-4d7a-b45d-3872ddd3f165",
            "resource": {
                "resourceType": "DeviceDefinition",
                "id": "1faf1d64-df18-4d7a-b45d-3872ddd3f165",
                "meta": {
                    "profile": [
                        "http://hl7.org/fhir/uv/livd/StructureDefinition/devicedefinition-uv-livd"
                    ]
                },
                "udiDeviceIdentifier": [
                    {
                        "deviceIdentifier": "00380740003746",
                        "issuer": "https://www.fda.gov/",
                        "jurisdiction": "https://unstats.un.org/unsd/methodology/m49/021"
                    }
                ],
                "manufacturerString": "Abbott Diagnostics",
                "modelNumber": "ARCHITECT c4000",
                "capability": [
                    {
                        "extension": [
                            {
                                "url": "http://hl7.org/fhir/uv/livd/StructureDefinition/ext-analyte",
                                "valueReference": {
                                    "reference": "ObservationDefinition/b87458ca-b29a-4244-b347-39111caf9ef2"
                                }
                            }
                        ],
                        "type": {
                            "coding": [
                                {
                                    "system": "http://hl7.org/fhir/resource-types",
                                    "code": "ObservationDefinition"
                                }
                            ]
                        }
                    }
                ]
            }
        },
        {
            "fullUrl": "urn:uuid:b87458ca-b29a-4244-b347-39111caf9ef2",
            "resource": {
                "resourceType": "ObservationDefinition",
                "id": "b87458ca-b29a-4244-b347-39111caf9ef2",
                "meta": {
                    "profile": [
                        "http://hl7.org/fhir/uv/livd/StructureDefinition/observationdefinition-uv-livd"
                    ]
                },
                "code": {
                    "coding": [
                        {
                            "system": "http://example.org/abbott/livd/ARCHITECT",
                            "code": "1069",
                            "display": "GluC"
                        }
                    ]
                },
                "extension": [
                    {
                        "url": "http://hl7.org/fhir/uv/livd/StructureDefinition/ext-device",
                        "valueReference": {
                            "reference": "DeviceDefinition/1faf1d64-df18-4d7a-b45d-3872ddd3f165"
                        }
                    },
                    {
                        "url": "http://hl7.org/fhir/uv/livd/StructureDefinition/ext-vendorReferenceIdentifier",
                        "valueIdentifier": {
                            "value": "3L82"
                        }
                    }
                ]
            }
        },
        {
            "fullUrl": "urn:uuid:66a4034b-6cc6-46ed-be83-343dfc51f2d7",
            "resource": {
                "resourceType": "ConceptMap",
                "id": "66a4034b-6cc6-46ed-be83-343dfc51f2d7",
                "meta": {
                    "profile": [
                        "http://hl7.org/fhir/uv/livd/StructureDefinition/conceptmap-testcode-uv-livd"
                    ]
                },
                "url": "http://hl7.org/fhir/uv/livd/ConceptMap/66a4034b-6cc6-46ed-be83-343dfc51f2d7",
                "version": "1.0.0",
                "name": "LivdConceptMap",
                "title": "Livd Concept Map",
                "status": "active",
                "experimental": false,
                "description": "Livd Concept Map",
                "sourceUri": "ObservationDefinition",
                "targetCanonical": "http://example.org/ivd-mfg/loinc-livd",
                "group": [
                    {
                        "target": "http://loinc.org",
                        "element": [
                            {
                                "code": "b87458ca-b29a-4244-b347-39111caf9ef2",
                                "display": "GluC",
                                "target": [
                                    {
                                        "code": "14749-6",
                                        "display": "Glucose [Moles/volume] in Serum or Plasma",
                                        "equivalence": "equivalent",
                                        "dependsOn": [
                                            {
                                                "property": "specimen",
                                                "value": "Serum/Plasma"
                                            },
                                            {
                                                "property": "result",
                                                "value": "mmol/L"
                                            }
                                        ]
                                    }
                                ]
                            },
                            {
                                "code": "b87458ca-b29a-4244-b347-39111caf9ef2",
                                "display": "GluC",
                                "target": [
                                    {
                                        "code": "2345-7",
                                        "display": "Glucose [Mass/volume] in Serum or Plasma",
                                        "equivalence": "equivalent",
                                        "dependsOn": [
                                            {
                                                "property": "specimen",
                                                "value": "Serum/Plasma"
                                            },
                                            {
                                                "property": "result",
                                                "value": "mg/dL"
                                            }
                                        ]
                                    }
                                ]
                            }
                        ]
                    }
                ]
            }
        },
        {
            "fullUrl": "urn:uuid:6bdc579a-67bf-47cf-833d-f4c905a6d1da",
            "resource": {
                "resourceType": "ValueSet",
                "id": "loinc-livd",
                "url": "http://example.org/ivd-mfg/loinc-livd",
                "version": "0.1.0",
                "name": "LivdLoincVS",
                "title": "LOINC value set for LIVD",
                "status": "draft",
                "experimental": false,
                "date": "2018-09-25",
                "description": "Includes the subset of LOINC codes that are relevant for this ConceptMap.",
                "compose": {
                    "include": [
                        {
                            "system": "http://loinc.org",
                            "version": "2.65",
                            "concept": [
                                {
                                    "code": "90370-8",
                                    "display": "LIVD mapping data set"
                                },
                                {
                                    "code": "14749-6",
                                    "display": "Glucose [Moles/volume] in Serum or Plasma"
                                },
                                {
                                    "code": "2345-7",
                                    "display": "Glucose [Mass/volume] in Serum or Plasma"
                                }
                            ]
                        }
                    ]
                }
            }
        }
    ]
}